File: 1-REFERENCIAS/DADOS_EXTERNOS/PALM/XRD OPBA copresipitation Data Excel.txt
/////////////////////////////////////////////////////////////////////////////////
/// Profile Data Ascii Dump (XRD)                                             ///
/////////////////////////////////////////////////////////////////////////////////

  Group     : Standard
  Data      : ABKS-5MHCl
  File Name : ABKS-5MHCl.RAW

# Profile Datafile
          comment             = ok
          date & time         = 05-31-21 15:48:04

# Measurement Condition
    X-ray tube
          target              = Cu
          voltage             = 40.0 (kV)
          current             = 30.0 (mA)
    Slits
          divergence slit     = 1.00000 (deg)
          scatter slit        = 1.00000 (deg)
          receiving slit      = 0.30000 (mm)
    Scanning
          drive axis          = Theta-2Theta
          scan range          =    7.000 -   70.000
          scan mode           = Continuous Scan
          scan speed          =   2.0000 (deg/min)
          sampling pitch      =   0.0200 (deg)
          preset time         =   0.60 (sec)

# Data      [ Total No. = 3151 ]
  <2Theta>   <   I   >
     7.0000        18
     7.0600        30
     7.1200        26
     7.1800        24
     7.2400        34
     7.3000        18
     7.3600        28
     7.4200        22
     7.4800        24
     7.5400        24
     7.6000        22
     7.6600        24
     7.7200        26
     7.7800        24
     7.8400        26
     7.9000        22
     7.9600        24
     8.0200        24
     8.0800        28
     8.1400        16
     8.2000        22
     8.2600        18
     8.3200        26
     8.3800        36
     8.4400        26
     8.5000        20
     8.5600        14
     8.6200        16
     8.6800        24
     8.7400        26
     8.8000        16
     8.8600        18
     8.9200        28
     8.9800        12
     9.0400        26
     9.1000        20
     9.1600        26
     9.2200        26
     9.2800        24
     9.3400        12
     9.4000        18
     9.4600        38
     9.5200        20
     9.5800        26
     9.6400        22
     9.7000        32
     9.7600        18
     9.8200        18
     9.8800        16
     9.9400        14
    10.0000        22
    10.0600        22
    10.1200        22
    10.1800        14
    10.2400        22
    10.3000        22
    10.3600        20
    10.4200        22
    10.4800        22
    10.5400        20
    10.6000        24
    10.6600        22
    10.7200        24
    10.7800        24
    10.8400        12
    10.9000        20
    10.9600        16
    11.0200        16
    11.0800        12
    11.1400        24
    11.2000        20
    11.2600        20
    11.3200        24
    11.3800        20
    11.4400        22
    11.5000        20
    11.5600        22
    11.6200        18
    11.6800        18
    11.7400        16
    11.8000        18
    11.8600        18
    11.9200        26
    11.9800        26
    12.0400        18
    12.1000        16
    12.1600        12
    12.2200        26
    12.2800        16
    12.3400        20
    12.4000        20
    12.4600        28
    12.5200        20
    12.5800        24
    12.6400        24
    12.7000        14
    12.7600        20
    12.8200        22
    12.8800        18
    12.9400        18
    13.0000        12
    13.0600        20
    13.1200        14
    13.1800        20
    13.2400        16
    13.3000        14
    13.3600        28
    13.4200        14
    13.4800        10
    13.5400        12
    13.6000        18
    13.6600        16
    13.7200        16
    13.7800        16
    13.8400        14
    13.9000        12
    13.9600        14
    14.0200        24
    14.0800        14
    14.1400        16
    14.2000        14
    14.2600        12
    14.3200        12
    14.3800        12
    14.4400        20
    14.5000        16
    14.5600        14
    14.6200        16
    14.6800        18
    14.7400         6
    14.8000        20
    14.8600        22
    14.9200        12
    14.9800        12
    15.0400        22
    15.1000        18
    15.1600        16
    15.2200        10
    15.2800         6
    15.3400        12
    15.4000        18
    15.4600         6
    15.5200        18
    15.5800        24
    15.6400        20
    15.7000        10
    15.7600        22
    15.8200        10
    15.8800        16
    15.9400        20
    16.0000        18
    16.0600        18
    16.1200        16
    16.1800        20
    16.2400        22
    16.3000        22
    16.3600        16
    16.4200        16
    16.4800        14
    16.5400        20
    16.6000        18
    16.6600        12
    16.7200        24
    16.7800        26
    16.8400        20
    16.9000        20
    16.9600        24
    17.0200        14
    17.0800        24
    17.1400        14
    17.2000        20
    17.2600        12
    17.3200        14
    17.3800        16
    17.4400        16
    17.5000        12
    17.5600        20
    17.6200        28
    17.6800        12
    17.7400        26
    17.8000        22
    17.8600        22
    17.9200        24
    17.9800        24
    18.0400        10
    18.1000        12
    18.1600        22
    18.2200        14
    18.2800        12
    18.3400        16
    18.4000        14
    18.4600        14
    18.5200        10
    18.5800        18
    18.6400        14
    18.7000        18
    18.7600        22
    18.8200        20
    18.8800        18
    18.9400        22
    19.0000        24
    19.0600        22
    19.1200        26
    19.1800         8
    19.2400        16
    19.3000        14
    19.3600        22
    19.4200        28
    19.4800        20
    19.5400        20
    19.6000        22
    19.6600        26
    19.7200        20
    19.7800        16
    19.8400        18
    19.9000        22
    19.9600        22
    20.0200        22
    20.0800        12
    20.1400        22
    20.2000        28
    20.2600        20
    20.3200        22
    20.3800        22
    20.4400        20
    20.5000        22
    20.5600        24
    20.6200        22
    20.6800        16
    20.7400        16
    20.8000        30
    20.8600        18
    20.9200        20
    20.9800        16
    21.0400        28
    21.1000        20
    21.1600        26
    21.2200        14
    21.2800        16
    21.3400        20
    21.4000        20
    21.4600        34
    21.5200        22
    21.5800        28
    21.6400        18
    21.7000        20
    21.7600        32
    21.8200        38
    21.8800        16
    21.9400        30
    22.0000        24
    22.0600        20
    22.1200        20
    22.1800        30
    22.2400        28
    22.3000        24
    22.3600        26
    22.4200        28
    22.4800        24
    22.5400        22
    22.6000        24
    22.6600        26
    22.7200        30
    22.7800        28
    22.8400        18
    22.9000        26
    22.9600        26
    23.0200        26
    23.0800        20
    23.1400        24
    23.2000        28
    23.2600        24
    23.3200        22
    23.3800        24
    23.4400        24
    23.5000        22
    23.5600        18
    23.6200        22
    23.6800        26
    23.7400        20
    23.8000        24
    23.8600        20
    23.9200        24
    23.9800        22
    24.0400        14
    24.1000        34
    24.1600        14
    24.2200        26
    24.2800        18
    24.3400        22
    24.4000        16
    24.4600        26
    24.5200        22
    24.5800        14
    24.6400        22
    24.7000        24
    24.7600        22
    24.8200        30
    24.8800        18
    24.9400        18
    25.0000        24
    25.0600        22
    25.1200        26
    25.1800        30
    25.2400        16
    25.3000        18
    25.3600        16
    25.4200        34
    25.4800        22
    25.5400        24
    25.6000        26
    25.6600        38
    25.7200        26
    25.7800        28
    25.8400        20
    25.9000        24
    25.9600        30
    26.0200        26
    26.0800        30
    26.1400        34
    26.2000        26
    26.2600        28
    26.3200        24
    26.3800        38
    26.4400        58
    26.5000        42
    26.5600        38
    26.6200        32
    26.6800        20
    26.7400        38
    26.8000        22
    26.8600        26
    26.9200        30
    26.9800        22
    27.0400        24
    27.1000        36
    27.1600        28
    27.2200        22
    27.2800        40
    27.3400        36
    27.4000        38
    27.4600        30
    27.5200        46
    27.5800        32
    27.6400        32
    27.7000        18
    27.7600        32
    27.8200        32
    27.8800        12
    27.9400        14
    28.0000        18
    28.0600        26
    28.1200        20
    28.1800        24
    28.2400        26
    28.3000        24
    28.3600        18
    28.4200        22
    28.4800        26
    28.5400        22
    28.6000        12
    28.6600        16
    28.7200        22
    28.7800        22
    28.8400        18
    28.9000        16
    28.9600        26
    29.0200        28
    29.0800        18
    29.1400        20
    29.2000        22
    29.2600        18
    29.3200        18
    29.3800        20
    29.4400         6
    29.5000        20
    29.5600        30
    29.6200        32
    29.6800        16
    29.7400        16
    29.8000        18
    29.8600        20
    29.9200        24
    29.9800        16
    30.0400        20
    30.1000        18
    30.1600        20
    30.2200        26
    30.2800        14
    30.3400        22
    30.4000        18
    30.4600        24
    30.5200        18
    30.5800        26
    30.6400        20
    30.7000        18
    30.7600        24
    30.8200        24
    30.8800        18
    30.9400        24
    31.0000        30
    31.0600        18
    31.1200        16
    31.1800        14
    31.2400        14
    31.3000        26
    31.3600        24
    31.4200        18
    31.4800        20
    31.5400        22
    31.6000        22
    31.6600        24
    31.7200        18
    31.7800        24
    31.8400        18
    31.9000        18
    31.9600        16
    32.0200        32
    32.0800        22
    32.1400        28
    32.2000        12
    32.2600        22
    32.3200        24
    32.3800        22
    32.4400        20
    32.5000        32
    32.5600        24
    32.6200        20
    32.6800        20
    32.7400        16
    32.8000        24
    32.8600        18
    32.9200        16
    32.9800        20
    33.0400        18
    33.1000        20
    33.1600        16
    33.2200        18
    33.2800        20
    33.3400        10
    33.4000        20
    33.4600        14
    33.5200        16
    33.5800        26
    33.6400        18
    33.7000        18
    33.7600        16
    33.8200        24
    33.8800        24
    33.9400        18
    34.0000        16
    34.0600        24
    34.1200        14
    34.1800        14
    34.2400        16
    34.3000        12
    34.3600        16
    34.4200        16
    34.4800        16
    34.5400        20
    34.6000        10
    34.6600        10
    34.7200        20
    34.7800        20
    34.8400        18
    34.9000        20
    34.9600        14
    35.0200        16
    35.0800         8
    35.1400        12
    35.2000         8
    35.2600        20
    35.3200        12
    35.3800        16
    35.4400        14
    35.5000        12
    35.5600        12
    35.6200        16
    35.6800        12
    35.7400        12
    35.8000        26
    35.8600        20
    35.9200        22
    35.9800        20
    36.0400        10
    36.1000         8
    36.1600         8
    36.2200        16
    36.2800        24
    36.3400        16
    36.4000        20
    36.4600        18
    36.5200        18
    36.5800        20
    36.6400        16
    36.7000        18
    36.7600        12
    36.8200        12
    36.8800         6
    36.9400        12
    37.0000        12
    37.0600         4
    37.1200         6
    37.1800        12
    37.2400        14
    37.3000        12
    37.3600        16
    37.4200        10
    37.4800         6
    37.5400        14
    37.6000        10
    37.6600        14
    37.7200        10
    37.7800        12
    37.8400        14
    37.9000        10
    37.9600        10
    38.0200        12
    38.0800        10
    38.1400        14
    38.2000        10
    38.2600        12
    38.3200         8
    38.3800         8
    38.4400        12
    38.5000        14
    38.5600        12
    38.6200        10
    38.6800        18
    38.7400        16
    38.8000        12
    38.8600        20
    38.9200        12
    38.9800        16
    39.0400        16
    39.1000        18
    39.1600        18
    39.2200        12
    39.2800        12
    39.3400        14
    39.4000        16
    39.4600         8
    39.5200         6
    39.5800        10
    39.6400        12
    39.7000         8
    39.7600        18
    39.8200        12
    39.8800         6
    39.9400        14
    40.0000        12
    40.0600        12
    40.1200         8
    40.1800        14
    40.2400        18
    40.3000        10
    40.3600        12
    40.4200         8
    40.4800        12
    40.5400        18
    40.6000         6
    40.6600        10
    40.7200        10
    40.7800        10
    40.8400        16
    40.9000        10
    40.9600        14
    41.0200        12
    41.0800         6
    41.1400        16
    41.2000         8
    41.2600         6
    41.3200         8
    41.3800         8
    41.4400        18
    41.5000        14
    41.5600        10
    41.6200        12
    41.6800        12
    41.7400        16
    41.8000        10
    41.8600        12
    41.9200        16
    41.9800        10
    42.0400        14
    42.1000         8
    42.1600        12
    42.2200        10
    42.2800         8
    42.3400        14
    42.4000         6
    42.4600         8
    42.5200        14
    42.5800        12
    42.6400        14
    42.7000        10
    42.7600        14
    42.8200         6
    42.8800        14
    42.9400        10
    43.0000        10
    43.0600         8
    43.1200        12
    43.1800        18
    43.2400         8
    43.3000        10
    43.3600         6
    43.4200        10
    43.4800        14
    43.5400         8
    43.6000         4
    43.6600         8
    43.7200        14
    43.7800        18
    43.8400         8
    43.9000         6
    43.9600        10
    44.0200        10
    44.0800        12
    44.1400        12
    44.2000         8
    44.2600         8
    44.3200        14
    44.3800        12
    44.4400         8
    44.5000        10
    44.5600        14
    44.6200         8
    44.6800        10
    44.7400        12
    44.8000         8
    44.8600        12
    44.9200        10
    44.9800        10
    45.0400        12
    45.1000         6
    45.1600        12
    45.2200        10
    45.2800        24
    45.3400        12
    45.4000         8
    45.4600         8
    45.5200        14
    45.5800         8
    45.6400        10
    45.7000         8
    45.7600        14
    45.8200         8
    45.8800        10
    45.9400         8
    46.0000         6
    46.0600        10
    46.1200        12
    46.1800        12
    46.2400        14
    46.3000         6
    46.3600        12
    46.4200        10
    46.4800        18
    46.5400        18
    46.6000        10
    46.6600        14
    46.7200        10
    46.7800         8
    46.8400        14
    46.9000        10
    46.9600         8
    47.0200        10
    47.0800        10
    47.1400         4
    47.2000        14
    47.2600         8
    47.3200         4
    47.3800        14
    47.4400        10
    47.5000         6
    47.5600         8
    47.6200         6
    47.6800        16
    47.7400         8
    47.8000        12
    47.8600         8
    47.9200        14
    47.9800        12
    48.0400        10
    48.1000        10
    48.1600         8
    48.2200        16
    48.2800         8
    48.3400         8
    48.4000         8
    48.4600        10
    48.5200        10
    48.5800         4
    48.6400         8
    48.7000         6
    48.7600        14
    48.8200         6
    48.8800        14
    48.9400        12
    49.0000         6
    49.0600         6
    49.1200         8
    49.1800        10
    49.2400        10
    49.3000        16
    49.3600        10
    49.4200        12
    49.4800         6
    49.5400        12
    49.6000        14
    49.6600        10
    49.7200         8
    49.7800         6
    49.8400        12
    49.9000        12
    49.9600        12
    50.0200        10
    50.0800        12
    50.1400        10
    50.2000         8
    50.2600         4
    50.3200        14
    50.3800        12
    50.4400        14
    50.5000        10
    50.5600        20
    50.6200        12
    50.6800        20
    50.7400        16
    50.8000        10
    50.8600        14
    50.9200         8
    50.9800        10
    51.0400        10
    51.1000        12
    51.1600        10
    51.2200         6
    51.2800        10
    51.3400        12
    51.4000        10
    51.4600        18
    51.5200         8
    51.5800         8
    51.6400        10
    51.7000        14
    51.7600        14
    51.8200         2
    51.8800        12
    51.9400        12
    52.0000        10
    52.0600         6
    52.1200         8
    52.1800         6
    52.2400        10
    52.3000        10
    52.3600        10
    52.4200         6
    52.4800         8
    52.5400         8
    52.6000        10
    52.6600        12
    52.7200        14
    52.7800        12
    52.8400        12
    52.9000        12
    52.9600        12
    53.0200         6
    53.0800         8
    53.1400         6
    53.2000         2
    53.2600        16
    53.3200        10
    53.3800        14
    53.4400         6
    53.5000        14
    53.5600        12
    53.6200        10
    53.6800        12
    53.7400        10
    53.8000         6
    53.8600         8
    53.9200        10
    53.9800         6
    54.0400        16
    54.1000        12
    54.1600        10
    54.2200         8
    54.2800         4
    54.3400        14
    54.4000         6
    54.4600         8
    54.5200        14
    54.5800         6
    54.6400         8
    54.7000        12
    54.7600         6
    54.8200         6
    54.8800         6
    54.9400         8
    55.0000         8
    55.0600         6
    55.1200        12
    55.1800        14
    55.2400         8
    55.3000         8
    55.3600         4
    55.4200         6
    55.4800         8
    55.5400         6
    55.6000        10
    55.6600        10
    55.7200         4
    55.7800        10
    55.8400        12
    55.9000        10
    55.9600         2
    56.0200         6
    56.0800         6
    56.1400        10
    56.2000         8
    56.2600         2
    56.3200         6
    56.3800         8
    56.4400         8
    56.5000        16
    56.5600         8
    56.6200         8
    56.6800         8
    56.7400         8
    56.8000         8
    56.8600        10
    56.9200         8
    56.9800        10
    57.0400         6
    57.1000        14
    57.1600         6
    57.2200         6
    57.2800         8
    57.3400        12
    57.4000        12
    57.4600         6
    57.5200         8
    57.5800        10
    57.6400         6
    57.7000        12
    57.7600         8
    57.8200         6
    57.8800         8
    57.9400         6
    58.0000        12
    58.0600        12
    58.1200        14
    58.1800         4
    58.2400         6
    58.3000         8
    58.3600        10
    58.4200         6
    58.4800         4
    58.5400         6
    58.6000         8
    58.6600         8
    58.7200         8
    58.7800        10
    58.8400        10
    58.9000         4
    58.9600        12
    59.0200        10
    59.0800         4
    59.1400         6
    59.2000        10
    59.2600         6
    59.3200         8
    59.3800         8
    59.4400        12
    59.5000         8
    59.5600         8
    59.6200         6
    59.6800         8
    59.7400        18
    59.8000        24
    59.8600        22
    59.9200        18
    59.9800        14
    60.0400        14
    60.1000         8
    60.1600        12
    60.2200         6
    60.2800         4
    60.3400         8
    60.4000        10
    60.4600        12
    60.5200        10
    60.5800         8
    60.6400         8
    60.7000         4
    60.7600         8
    60.8200        12
    60.8800        10
    60.9400        10
    61.0000        12
    61.0600         6
    61.1200        14
    61.1800        12
    61.2400         8
    61.3000        10
    61.3600        10
    61.4200        10
    61.4800        10
    61.5400         8
    61.6000         6
    61.6600        12
    61.7200        14
    61.7800        10
    61.8400        14
    61.9000        18
    61.9600         8
    62.0200        10
    62.0800        10
    62.1400        12
    62.2000        10
    62.2600         6
    62.3200         6
    62.3800         6
    62.4400         8
    62.5000        12
    62.5600         4
    62.6200         6
    62.6800         8
    62.7400        10
    62.8000        14
    62.8600        10
    62.9200         6
    62.9800        16
    63.0400        10
    63.1000         8
    63.1600         4
    63.2200         6
    63.2800         8
    63.3400         6
    63.4000        10
    63.4600         8
    63.5200         8
    63.5800        12
    63.6400         8
    63.7000         6
    63.7600        14
    63.8200         8
    63.8800         4
    63.9400        10
    64.0000        10
    64.0600        12
    64.1200        10
    64.1800        12
    64.2400        10
    64.3000         8
    64.3600         8
    64.4200        10
    64.4800         8
    64.5400         8
    64.6000        10
    64.6600         4
    64.7200         6
    64.7800        12
    64.8400         8
    64.9000        12
    64.9600         4
    65.0200         6
    65.0800        12
    65.1400         6
    65.2000         4
    65.2600        14
    65.3200         6
    65.3800         6
    65.4400         8
    65.5000         8
    65.5600         8
    65.6200         4
    65.6800         6
    65.7400         4
    65.8000        12
    65.8600        12
    65.9200         8
    65.9800         8
    66.0400         8
    66.1000         8
    66.1600         8
    66.2200        16
    66.2800         4
    66.3400         8
    66.4000         6
    66.4600        12
    66.5200         8
    66.5800         2
    66.6400         8
    66.7000         4
    66.7600        14
    66.8200         8
    66.8800         8
    66.9400         6
    67.0000         6
    67.0600         4
    67.1200         4
    67.1800         8
    67.2400         8
    67.3000        12
    67.3600         8
    67.4200         8
    67.4800        10
    67.5400        12
    67.6000         2
    67.6600         4
    67.7200         4
    67.7800         6
    67.8400         8
    67.9000         2
    67.9600         8
    68.0200         8
    68.0800         8
    68.1400        12
    68.2000        14
    68.2600        10
    68.3200         4
    68.3800         4
    68.4400         4
    68.5000         4
    68.5600         8
    68.6200        10
    68.6800         4
    68.7400        10
    68.8000        10
    68.8600         8
    68.9200         8
    68.9800        12
    69.0400        12
    69.1000         6
    69.1600        10
    69.2200         6
    69.2800         8
    69.3400        10
    69.4000         4
    69.4600         6
    69.5200        10
    69.5800         6
    69.6400         4
    69.7000         8
    69.7600         8
    69.8200         8
    69.8800         4
    69.9400         4
    70.0000         6