File: 1-REFERENCIAS/DADOS_EXTERNOS/PALM/XRD OPBA PEG 6000 Data Excel.txt
/////////////////////////////////////////////////////////////////////////////////
/// Profile Data Ascii Dump (XRD)                                             ///
/////////////////////////////////////////////////////////////////////////////////

  Group     : Standard
  Data      : Loiss
  File Name : Loiss.RAW

# Profile Datafile
          comment             =
          date & time         = 08-01-22 14:07:26

# Measurement Condition
    X-ray tube
          target              = Cu
          voltage             = 40.0 (kV)
          current             = 30.0 (mA)
    Slits
          divergence slit     = 1.00000 (deg)
          scatter slit        = 1.00000 (deg)
          receiving slit      = 0.30000 (mm)
    Scanning
          drive axis          = Theta-2Theta
          scan range          =    7.000 -   70.000
          scan mode           = Continuous Scan
          scan speed          =   2.0000 (deg/min)
          sampling pitch      =   0.0200 (deg)
          preset time         =   0.60 (sec)

# Data      [ Total No. = 3151 ]
  <2Theta>   <   I   >
     7.0000        10
     7.0600         6
     7.1200         8
     7.1800         6
     7.2400         0
     7.3000        16
     7.3600         8
     7.4200        10
     7.4800        12
     7.5400        10
     7.6000         6
     7.6600         8
     7.7200         6
     7.7800        10
     7.8400         6
     7.9000        10
     7.9600        12
     8.0200         6
     8.0800         4
     8.1400         8
     8.2000         8
     8.2600         4
     8.3200        10
     8.3800         8
     8.4400         8
     8.5000        12
     8.5600        10
     8.6200        10
     8.6800         8
     8.7400        10
     8.8000         4
     8.8600         8
     8.9200         6
     8.9800        14
     9.0400        14
     9.1000        10
     9.1600        10
     9.2200         4
     9.2800        18
     9.3400         8
     9.4000         6
     9.4600         8
     9.5200        10
     9.5800        12
     9.6400        10
     9.7000        10
     9.7600        10
     9.8200        20
     9.8800        10
     9.9400        16
    10.0000        10
    10.0600         8
    10.1200        10
    10.1800        10
    10.2400        16
    10.3000        12
    10.3600         8
    10.4200         6
    10.4800        16
    10.5400        20
    10.6000        20
    10.6600        14
    10.7200        10
    10.7800        12
    10.8400        12
    10.9000        18
    10.9600        10
    11.0200        10
    11.0800        12
    11.1400        10
    11.2000        14
    11.2600        14
    11.3200        20
    11.3800        14
    11.4400        16
    11.5000        12
    11.5600        16
    11.6200        18
    11.6800        14
    11.7400        14
    11.8000        22
    11.8600        12
    11.9200        10
    11.9800        12
    12.0400        10
    12.1000        10
    12.1600         6
    12.2200         8
    12.2800         8
    12.3400        16
    12.4000        24
    12.4600        12
    12.5200         6
    12.5800        10
    12.6400        12
    12.7000        12
    12.7600         6
    12.8200        10
    12.8800        10
    12.9400        12
    13.0000        10
    13.0600         8
    13.1200        10
    13.1800        10
    13.2400         6
    13.3000         6
    13.3600         8
    13.4200        10
    13.4800        10
    13.5400        10
    13.6000         8
    13.6600        10
    13.7200        10
    13.7800         8
    13.8400        12
    13.9000        14
    13.9600        16
    14.0200        10
    14.0800        12
    14.1400         8
    14.2000        10
    14.2600         6
    14.3200        10
    14.3800         6
    14.4400         6
    14.5000        12
    14.5600        10
    14.6200        12
    14.6800        12
    14.7400        10
    14.8000        10
    14.8600         4
    14.9200         6
    14.9800        10
    15.0400        12
    15.1000        10
    15.1600        10
    15.2200        10
    15.2800        12
    15.3400         6
    15.4000        10
    15.4600         6
    15.5200         6
    15.5800        10
    15.6400        12
    15.7000        12
    15.7600         8
    15.8200        10
    15.8800        10
    15.9400         6
    16.0000         8
    16.0600        10
    16.1200        12
    16.1800         6
    16.2400        10
    16.3000        14
    16.3600         8
    16.4200        12
    16.4800        10
    16.5400         6
    16.6000        10
    16.6600        14
    16.7200        10
    16.7800        10
    16.8400         6
    16.9000         6
    16.9600        16
    17.0200         8
    17.0800         4
    17.1400         8
    17.2000        10
    17.2600        12
    17.3200        10
    17.3800        12
    17.4400        10
    17.5000        14
    17.5600         8
    17.6200        10
    17.6800         4
    17.7400        10
    17.8000        10
    17.8600        14
    17.9200        18
    17.9800         8
    18.0400         8
    18.1000        10
    18.1600        10
    18.2200        14
    18.2800        12
    18.3400        12
    18.4000        12
    18.4600        12
    18.5200        12
    18.5800        14
    18.6400         8
    18.7000        10
    18.7600        10
    18.8200        18
    18.8800        18
    18.9400        20
    19.0000        34
    19.0600        26
    19.1200        22
    19.1800        24
    19.2400        16
    19.3000        20
    19.3600        14
    19.4200        12
    19.4800        10
    19.5400        12
    19.6000        12
    19.6600        10
    19.7200        10
    19.7800        16
    19.8400         8
    19.9000        18
    19.9600        14
    20.0200        10
    20.0800         8
    20.1400        10
    20.2000         8
    20.2600        10
    20.3200        10
    20.3800         6
    20.4400         8
    20.5000        18
    20.5600        18
    20.6200        12
    20.6800        10
    20.7400        12
    20.8000        22
    20.8600        12
    20.9200         8
    20.9800        14
    21.0400        16
    21.1000        16
    21.1600        10
    21.2200        12
    21.2800        14
    21.3400        12
    21.4000        10
    21.4600        10
    21.5200        10
    21.5800        12
    21.6400        14
    21.7000        18
    21.7600        14
    21.8200        20
    21.8800        12
    21.9400        22
    22.0000        10
    22.0600        16
    22.1200        12
    22.1800        12
    22.2400         4
    22.3000        10
    22.3600        12
    22.4200         8
    22.4800        20
    22.5400        12
    22.6000        12
    22.6600        16
    22.7200        14
    22.7800        18
    22.8400        20
    22.9000        28
    22.9600        26
    23.0200        24
    23.0800        26
    23.1400        22
    23.2000        26
    23.2600        34
    23.3200        18
    23.3800        22
    23.4400        30
    23.5000        30
    23.5600        24
    23.6200        14
    23.6800         8
    23.7400        20
    23.8000        10
    23.8600        14
    23.9200        18
    23.9800        10
    24.0400        12
    24.1000        14
    24.1600        14
    24.2200        10
    24.2800        10
    24.3400        14
    24.4000        14
    24.4600        14
    24.5200        10
    24.5800         8
    24.6400         8
    24.7000         4
    24.7600         8
    24.8200         4
    24.8800         6
    24.9400        10
    25.0000        16
    25.0600        12
    25.1200        10
    25.1800        14
    25.2400        12
    25.3000         8
    25.3600        12
    25.4200         8
    25.4800        10
    25.5400         6
    25.6000         8
    25.6600         6
    25.7200        12
    25.7800         4
    25.8400        16
    25.9000        10
    25.9600        12
    26.0200        10
    26.0800        14
    26.1400        10
    26.2000         8
    26.2600        16
    26.3200        16
    26.3800        10
    26.4400        10
    26.5000        10
    26.5600        24
    26.6200        24
    26.6800        18
    26.7400        10
    26.8000        12
    26.8600         6
    26.9200        12
    26.9800        10
    27.0400         8
    27.1000         8
    27.1600        12
    27.2200         6
    27.2800        10
    27.3400         8
    27.4000        10
    27.4600         6
    27.5200         8
    27.5800        12
    27.6400         6
    27.7000        10
    27.7600         6
    27.8200         8
    27.8800         8
    27.9400         4
    28.0000        12
    28.0600        12
    28.1200         8
    28.1800         6
    28.2400        10
    28.3000        10
    28.3600         6
    28.4200        10
    28.4800         8
    28.5400        10
    28.6000         8
    28.6600        14
    28.7200        14
    28.7800         4
    28.8400         8
    28.9000         8
    28.9600         4
    29.0200         8
    29.0800         6
    29.1400         8
    29.2000         4
    29.2600        10
    29.3200         8
    29.3800         8
    29.4400         4
    29.5000        12
    29.5600         6
    29.6200         2
    29.6800         6
    29.7400         8
    29.8000         8
    29.8600        14
    29.9200         6
    29.9800        10
    30.0400         4
    30.1000        10
    30.1600         8
    30.2200         6
    30.2800         6
    30.3400        10
    30.4000        10
    30.4600        10
    30.5200        10
    30.5800         8
    30.6400        10
    30.7000         6
    30.7600         6
    30.8200         4
    30.8800         8
    30.9400        10
    31.0000        10
    31.0600         8
    31.1200         4
    31.1800        14
    31.2400         8
    31.3000         8
    31.3600         8
    31.4200        10
    31.4800        14
    31.5400         6
    31.6000        10
    31.6600        10
    31.7200         6
    31.7800        10
    31.8400         6
    31.9000         4
    31.9600         8
    32.0200         8
    32.0800        12
    32.1400         6
    32.2000        10
    32.2600         8
    32.3200         8
    32.3800         6
    32.4400         4
    32.5000        12
    32.5600         2
    32.6200        10
    32.6800         8
    32.7400         4
    32.8000        10
    32.8600        10
    32.9200         6
    32.9800         8
    33.0400         8
    33.1000         8
    33.1600        10
    33.2200         4
    33.2800         6
    33.3400         6
    33.4000         4
    33.4600         4
    33.5200         6
    33.5800         6
    33.6400         6
    33.7000         6
    33.7600         4
    33.8200         8
    33.8800         6
    33.9400         2
    34.0000         6
    34.0600        10
    34.1200         6
    34.1800         8
    34.2400         4
    34.3000         8
    34.3600        12
    34.4200        10
    34.4800         6
    34.5400         0
    34.6000         8
    34.6600         4
    34.7200         2
    34.7800         6
    34.8400         2
    34.9000         4
    34.9600        10
    35.0200         4
    35.0800        10
    35.1400         8
    35.2000         8
    35.2600        12
    35.3200         8
    35.3800         8
    35.4400         4
    35.5000         6
    35.5600         2
    35.6200         4
    35.6800         6
    35.7400         4
    35.8000         4
    35.8600         4
    35.9200         0
    35.9800         8
    36.0400         6
    36.1000         6
    36.1600         6
    36.2200        10
    36.2800        10
    36.3400         8
    36.4000         6
    36.4600        10
    36.5200        12
    36.5800         8
    36.6400         4
    36.7000        10
    36.7600         6
    36.8200         6
    36.8800         8
    36.9400         6
    37.0000         4
    37.0600         8
    37.1200         8
    37.1800         6
    37.2400         4
    37.3000         4
    37.3600        10
    37.4200         4
    37.4800         6
    37.5400         4
    37.6000         4
    37.6600         4
    37.7200         4
    37.7800         6
    37.8400         2
    37.9000        10
    37.9600         8
    38.0200        10
    38.0800         4
    38.1400         6
    38.2000         4
    38.2600         8
    38.3200        10
    38.3800         2
    38.4400         4
    38.5000         4
    38.5600         4
    38.6200         8
    38.6800         6
    38.7400         2
    38.8000         4
    38.8600         4
    38.9200         4
    38.9800         6
    39.0400         6
    39.1000         2
    39.1600         8
    39.2200         6
    39.2800         6
    39.3400         6
    39.4000         4
    39.4600         4
    39.5200        10
    39.5800         8
    39.6400         4
    39.7000        10
    39.7600         6
    39.8200         4
    39.8800         8
    39.9400         8
    40.0000         6
    40.0600         6
    40.1200         6
    40.1800         8
    40.2400        10
    40.3000         4
    40.3600         2
    40.4200         0
    40.4800        12
    40.5400         4
    40.6000         4
    40.6600         2
    40.7200         4
    40.7800         0
    40.8400         8
    40.9000         8
    40.9600         6
    41.0200         6
    41.0800         8
    41.1400         4
    41.2000         6
    41.2600         4
    41.3200         6
    41.3800         4
    41.4400        12
    41.5000         4
    41.5600         4
    41.6200         4
    41.6800         6
    41.7400         6
    41.8000         4
    41.8600         6
    41.9200         8
    41.9800         4
    42.0400         2
    42.1000         2
    42.1600         4
    42.2200        10
    42.2800         0
    42.3400        10
    42.4000         6
    42.4600         6
    42.5200         4
    42.5800        10
    42.6400         6
    42.7000         8
    42.7600         4
    42.8200         4
    42.8800         8
    42.9400         6
    43.0000         8
    43.0600         2
    43.1200         6
    43.1800         2
    43.2400         6
    43.3000         4
    43.3600         2
    43.4200         4
    43.4800         8
    43.5400         6
    43.6000         4
    43.6600         4
    43.7200         6
    43.7800         6
    43.8400         0
    43.9000         0
    43.9600         8
    44.0200         2
    44.0800         8
    44.1400         6
    44.2000         6
    44.2600         6
    44.3200         2
    44.3800         4
    44.4400         2
    44.5000         4
    44.5600        10
    44.6200         2
    44.6800         2
    44.7400        12
    44.8000         4
    44.8600         6
    44.9200         2
    44.9800         6
    45.0400         8
    45.1000         6
    45.1600         6
    45.2200         0
    45.2800         8
    45.3400         6
    45.4000         6
    45.4600         2
    45.5200         2
    45.5800         2
    45.6400         2
    45.7000         6
    45.7600         2
    45.8200         6
    45.8800         4
    45.9400         2
    46.0000         6
    46.0600         0
    46.1200         4
    46.1800         4
    46.2400         4
    46.3000         6
    46.3600         4
    46.4200         4
    46.4800         6
    46.5400         4
    46.6000         4
    46.6600         4
    46.7200         8
    46.7800         4
    46.8400         6
    46.9000         2
    46.9600         4
    47.0200         6
    47.0800         4
    47.1400         8
    47.2000         6
    47.2600         4
    47.3200         8
    47.3800         4
    47.4400         8
    47.5000         4
    47.5600         6
    47.6200         4
    47.6800         4
    47.7400         4
    47.8000         8
    47.8600         2
    47.9200         6
    47.9800         4
    48.0400         4
    48.1000         4
    48.1600         4
    48.2200         4
    48.2800         4
    48.3400         4
    48.4000         4
    48.4600         2
    48.5200         6
    48.5800         8
    48.6400         6
    48.7000         4
    48.7600         8
    48.8200         2
    48.8800         8
    48.9400         4
    49.0000         6
    49.0600         6
    49.1200         4
    49.1800         4
    49.2400         8
    49.3000         0
    49.3600         6
    49.4200         2
    49.4800         4
    49.5400         6
    49.6000         8
    49.6600         6
    49.7200         4
    49.7800         6
    49.8400         6
    49.9000         4
    49.9600         4
    50.0200         8
    50.0800         4
    50.1400         4
    50.2000         4
    50.2600         4
    50.3200         6
    50.3800         4
    50.4400         8
    50.5000         6
    50.5600         4
    50.6200         6
    50.6800         4
    50.7400         8
    50.8000         2
    50.8600         6
    50.9200         4
    50.9800         4
    51.0400         4
    51.1000         4
    51.1600         6
    51.2200         4
    51.2800         4
    51.3400         0
    51.4000         4
    51.4600         2
    51.5200         6
    51.5800         2
    51.6400         4
    51.7000         4
    51.7600         4
    51.8200         0
    51.8800         2
    51.9400         2
    52.0000         6
    52.0600         6
    52.1200         6
    52.1800         0
    52.2400         6
    52.3000         6
    52.3600         2
    52.4200         2
    52.4800         8
    52.5400         2
    52.6000         4
    52.6600         6
    52.7200         4
    52.7800         4
    52.8400         4
    52.9000         4
    52.9600         4
    53.0200         2
    53.0800         4
    53.1400         4
    53.2000         4
    53.2600         2
    53.3200         2
    53.3800         4
    53.4400         4
    53.5000         6
    53.5600         4
    53.6200         2
    53.6800         4
    53.7400         4
    53.8000         0
    53.8600         4
    53.9200         4
    53.9800         4
    54.0400         0
    54.1000         2
    54.1600         2
    54.2200         4
    54.2800         2
    54.3400         2
    54.4000         4
    54.4600         4
    54.5200         2
    54.5800         6
    54.6400         6
    54.7000         6
    54.7600         6
    54.8200         8
    54.8800         6
    54.9400         0
    55.0000         2
    55.0600         2
    55.1200         6
    55.1800         2
    55.2400         4
    55.3000         6
    55.3600         4
    55.4200         6
    55.4800         2
    55.5400         2
    55.6000         0
    55.6600         8
    55.7200         2
    55.7800         4
    55.8400         6
    55.9000         8
    55.9600         4
    56.0200         2
    56.0800         2
    56.1400         4
    56.2000         4
    56.2600         6
    56.3200         0
    56.3800         4
    56.4400         4
    56.5000         4
    56.5600         4
    56.6200        10
    56.6800         2
    56.7400         2
    56.8000         6
    56.8600         4
    56.9200         4
    56.9800         2
    57.0400         6
    57.1000         4
    57.1600         4
    57.2200         0
    57.2800         2
    57.3400         2
    57.4000         4
    57.4600         6
    57.5200         2
    57.5800         4
    57.6400         6
    57.7000         4
    57.7600         6
    57.8200         2
    57.8800         2
    57.9400         4
    58.0000         4
    58.0600         0
    58.1200         2
    58.1800         8
    58.2400         2
    58.3000         0
    58.3600         2
    58.4200         6
    58.4800         6
    58.5400         4
    58.6000         6
    58.6600         2
    58.7200         6
    58.7800         4
    58.8400         2
    58.9000         0
    58.9600         2
    59.0200         4
    59.0800         2
    59.1400         4
    59.2000         6
    59.2600         2
    59.3200         6
    59.3800         0
    59.4400         0
    59.5000         4
    59.5600         8
    59.6200         2
    59.6800         4
    59.7400         4
    59.8000         0
    59.8600         6
    59.9200         6
    59.9800         2
    60.0400         8
    60.1000         6
    60.1600         6
    60.2200         0
    60.2800         4
    60.3400         4
    60.4000         8
    60.4600         8
    60.5200         6
    60.5800         8
    60.6400         2
    60.7000         0
    60.7600         4
    60.8200         4
    60.8800         4
    60.9400         6
    61.0000         6
    61.0600         2
    61.1200         2
    61.1800         2
    61.2400         2
    61.3000         6
    61.3600         6
    61.4200         6
    61.4800         8
    61.5400         6
    61.6000         6
    61.6600         4
    61.7200         6
    61.7800         4
    61.8400         0
    61.9000         4
    61.9600         0
    62.0200         4
    62.0800         0
    62.1400         6
    62.2000         6
    62.2600         2
    62.3200         6
    62.3800         4
    62.4400         4
    62.5000         2
    62.5600         4
    62.6200         6
    62.6800         6
    62.7400         4
    62.8000         2
    62.8600         2
    62.9200         4
    62.9800         2
    63.0400         4
    63.1000         4
    63.1600         4
    63.2200         6
    63.2800         6
    63.3400         6
    63.4000         2
    63.4600         4
    63.5200         4
    63.5800         2
    63.6400         6
    63.7000         2
    63.7600         2
    63.8200         4
    63.8800        10
    63.9400         6
    64.0000         6
    64.0600         4
    64.1200         6
    64.1800         2
    64.2400         2
    64.3000         4
    64.3600         0
    64.4200         6
    64.4800         2
    64.5400         6
    64.6000         2
    64.6600         4
    64.7200         8
    64.7800         0
    64.8400         6
    64.9000         8
    64.9600         6
    65.0200         6
    65.0800         2
    65.1400         0
    65.2000         2
    65.2600         2
    65.3200         2
    65.3800         4
    65.4400         6
    65.5000         0
    65.5600         6
    65.6200         2
    65.6800         6
    65.7400         4
    65.8000         6
    65.8600         6
    65.9200         4
    65.9800         2
    66.0400         4
    66.1000         6
    66.1600         4
    66.2200         6
    66.2800         4
    66.3400         0
    66.4000         6
    66.4600         6
    66.5200         6
    66.5800         2
    66.6400         6
    66.7000         8
    66.7600         2
    66.8200         2
    66.8800         2
    66.9400         4
    67.0000         2
    67.0600         2
    67.1200         2
    67.1800         4
    67.2400         2
    67.3000         2
    67.3600         6
    67.4200         2
    67.4800         4
    67.5400         2
    67.6000         2
    67.6600         8
    67.7200         4
    67.7800         2
    67.8400         4
    67.9000         4
    67.9600         2
    68.0200         0
    68.0800         4
    68.1400         2
    68.2000         2
    68.2600         2
    68.3200         4
    68.3800         2
    68.4400         4
    68.5000         6
    68.5600         2
    68.6200         4
    68.6800         4
    68.7400        10
    68.8000         4
    68.8600         2
    68.9200         2
    68.9800         2
    69.0400         4
    69.1000         4
    69.1600         2
    69.2200         2
    69.2800         6
    69.3400         6
    69.4000         2
    69.4600         4
    69.5200         2
    69.5800         4
    69.6400         4
    69.7000         4
    69.7600         6
    69.8200         4
    69.8800         6
    69.9400         2
    70.0000         4