File: 1-REFERENCIAS/DADOS_EXTERNOS/PALM/XRD OPBA Calcinacion and ballmill Data Excel.txt
/////////////////////////////////////////////////////////////////////////////////
/// Profile Data Ascii Dump (XRD)                                             ///
/////////////////////////////////////////////////////////////////////////////////

  Group     : Standard
  Data      : ABKSNB
  File Name : ABKSNB.RAW

# Profile Datafile
          comment             =
          date & time         = 07-29-22 17:31:30

# Measurement Condition
    X-ray tube
          target              = Cu
          voltage             = 40.0 (kV)
          current             = 30.0 (mA)
    Slits
          divergence slit     = 1.00000 (deg)
          scatter slit        = 1.00000 (deg)
          receiving slit      = 0.30000 (mm)
    Scanning
          drive axis          = Theta-2Theta
          scan range          =    7.000 -   70.000
          scan mode           = Continuous Scan
          scan speed          =   2.0000 (deg/min)
          sampling pitch      =   0.0200 (deg)
          preset time         =   0.60 (sec)

# Data      [ Total No. = 3151 ]
  <2Theta>   <   I   >
     7.0000         4
     7.0600         6
     7.1200        10
     7.1800        10
     7.2400         8
     7.3000        10
     7.3600        10
     7.4200         8
     7.4800         8
     7.5400         6
     7.6000         6
     7.6600        10
     7.7200         4
     7.7800         6
     7.8400        14
     7.9000         6
     7.9600        14
     8.0200         6
     8.0800         8
     8.1400        10
     8.2000         8
     8.2600        14
     8.3200         6
     8.3800         6
     8.4400         8
     8.5000         8
     8.5600         8
     8.6200        12
     8.6800         4
     8.7400        12
     8.8000         6
     8.8600        10
     8.9200        10
     8.9800         6
     9.0400         8
     9.1000        12
     9.1600        10
     9.2200        10
     9.2800         8
     9.3400        16
     9.4000        10
     9.4600        22
     9.5200        12
     9.5800        16
     9.6400        14
     9.7000         8
     9.7600        10
     9.8200        14
     9.8800         6
     9.9400        12
    10.0000        18
    10.0600        14
    10.1200        14
    10.1800        16
    10.2400        10
    10.3000         8
    10.3600        12
    10.4200        12
    10.4800        12
    10.5400        14
    10.6000         8
    10.6600        14
    10.7200        14
    10.7800        12
    10.8400        18
    10.9000        16
    10.9600        16
    11.0200        16
    11.0800        14
    11.1400        20
    11.2000        14
    11.2600        24
    11.3200        12
    11.3800        18
    11.4400        18
    11.5000        16
    11.5600        14
    11.6200        20
    11.6800        16
    11.7400        16
    11.8000        12
    11.8600        12
    11.9200        16
    11.9800        20
    12.0400        18
    12.1000        14
    12.1600        20
    12.2200        20
    12.2800        14
    12.3400         6
    12.4000        12
    12.4600        18
    12.5200        16
    12.5800        10
    12.6400        10
    12.7000        12
    12.7600         8
    12.8200        12
    12.8800        14
    12.9400        12
    13.0000        12
    13.0600        10
    13.1200        18
    13.1800        16
    13.2400        12
    13.3000        14
    13.3600        16
    13.4200        12
    13.4800        10
    13.5400        12
    13.6000        16
    13.6600        10
    13.7200        16
    13.7800        10
    13.8400        10
    13.9000        18
    13.9600        12
    14.0200        12
    14.0800         4
    14.1400        18
    14.2000        10
    14.2600        12
    14.3200         2
    14.3800        12
    14.4400        10
    14.5000        16
    14.5600        10
    14.6200         6
    14.6800        14
    14.7400        14
    14.8000         8
    14.8600         8
    14.9200         6
    14.9800         8
    15.0400        10
    15.1000         4
    15.1600        12
    15.2200        14
    15.2800         6
    15.3400         8
    15.4000        14
    15.4600        16
    15.5200         6
    15.5800         4
    15.6400        10
    15.7000        16
    15.7600         6
    15.8200        12
    15.8800         8
    15.9400        14
    16.0000        12
    16.0600         8
    16.1200         8
    16.1800        14
    16.2400        14
    16.3000        16
    16.3600        18
    16.4200        12
    16.4800        12
    16.5400        16
    16.6000         8
    16.6600         8
    16.7200         8
    16.7800         8
    16.8400         4
    16.9000        10
    16.9600         6
    17.0200         8
    17.0800        10
    17.1400        18
    17.2000         8
    17.2600         8
    17.3200        10
    17.3800        12
    17.4400        14
    17.5000        18
    17.5600         6
    17.6200        12
    17.6800         6
    17.7400        10
    17.8000        10
    17.8600        14
    17.9200        16
    17.9800        16
    18.0400        12
    18.1000        10
    18.1600        10
    18.2200        18
    18.2800        18
    18.3400        16
    18.4000        10
    18.4600        12
    18.5200         8
    18.5800        10
    18.6400         8
    18.7000        10
    18.7600        18
    18.8200        12
    18.8800        10
    18.9400        10
    19.0000         8
    19.0600        16
    19.1200        20
    19.1800        26
    19.2400        24
    19.3000        16
    19.3600        18
    19.4200        14
    19.4800        10
    19.5400        14
    19.6000        14
    19.6600        14
    19.7200        10
    19.7800        20
    19.8400        12
    19.9000        16
    19.9600        12
    20.0200        14
    20.0800        14
    20.1400        16
    20.2000        12
    20.2600        18
    20.3200        12
    20.3800        10
    20.4400        16
    20.5000        20
    20.5600        18
    20.6200        14
    20.6800        16
    20.7400        10
    20.8000        14
    20.8600        10
    20.9200        10
    20.9800        10
    21.0400        16
    21.1000        14
    21.1600        12
    21.2200        18
    21.2800         8
    21.3400        14
    21.4000        14
    21.4600        10
    21.5200        10
    21.5800        16
    21.6400        14
    21.7000        18
    21.7600        18
    21.8200        16
    21.8800        16
    21.9400        20
    22.0000        12
    22.0600        16
    22.1200        16
    22.1800        20
    22.2400        16
    22.3000        14
    22.3600        24
    22.4200        18
    22.4800        14
    22.5400        16
    22.6000        12
    22.6600        20
    22.7200        16
    22.7800        16
    22.8400        18
    22.9000        20
    22.9600        14
    23.0200        12
    23.0800        26
    23.1400        18
    23.2000        22
    23.2600        28
    23.3200        18
    23.3800        26
    23.4400        16
    23.5000        20
    23.5600        16
    23.6200        18
    23.6800        16
    23.7400        10
    23.8000        14
    23.8600         6
    23.9200        18
    23.9800         8
    24.0400        16
    24.1000        10
    24.1600        10
    24.2200        16
    24.2800        10
    24.3400        18
    24.4000        12
    24.4600        18
    24.5200        14
    24.5800        14
    24.6400        10
    24.7000        10
    24.7600        10
    24.8200        14
    24.8800        12
    24.9400        10
    25.0000        12
    25.0600        10
    25.1200        10
    25.1800         8
    25.2400         8
    25.3000        10
    25.3600        12
    25.4200         8
    25.4800        12
    25.5400         6
    25.6000        10
    25.6600         8
    25.7200        10
    25.7800        10
    25.8400         8
    25.9000        12
    25.9600         6
    26.0200        16
    26.0800        16
    26.1400         6
    26.2000        10
    26.2600         6
    26.3200        14
    26.3800         8
    26.4400        10
    26.5000        12
    26.5600        14
    26.6200        10
    26.6800        14
    26.7400        12
    26.8000        12
    26.8600         6
    26.9200         6
    26.9800         8
    27.0400        20
    27.1000        16
    27.1600        10
    27.2200        12
    27.2800         4
    27.3400         8
    27.4000        10
    27.4600         6
    27.5200         8
    27.5800        12
    27.6400        10
    27.7000        10
    27.7600         6
    27.8200         6
    27.8800        12
    27.9400        10
    28.0000         6
    28.0600        12
    28.1200         8
    28.1800        10
    28.2400        10
    28.3000        10
    28.3600         6
    28.4200         4
    28.4800         8
    28.5400         4
    28.6000         8
    28.6600         4
    28.7200         8
    28.7800         6
    28.8400         6
    28.9000        10
    28.9600        10
    29.0200         2
    29.0800         6
    29.1400         8
    29.2000        10
    29.2600         6
    29.3200         2
    29.3800         8
    29.4400        16
    29.5000         6
    29.5600        10
    29.6200         8
    29.6800         6
    29.7400         8
    29.8000         4
    29.8600         8
    29.9200        12
    29.9800         6
    30.0400         8
    30.1000        10
    30.1600         6
    30.2200        12
    30.2800         6
    30.3400         6
    30.4000         4
    30.4600         8
    30.5200         8
    30.5800         2
    30.6400         4
    30.7000        10
    30.7600        10
    30.8200         4
    30.8800         8
    30.9400        10
    31.0000        12
    31.0600         4
    31.1200        10
    31.1800         8
    31.2400        10
    31.3000         6
    31.3600         8
    31.4200        14
    31.4800         8
    31.5400         6
    31.6000         4
    31.6600         6
    31.7200         8
    31.7800        18
    31.8400         4
    31.9000         8
    31.9600        12
    32.0200         6
    32.0800         6
    32.1400        12
    32.2000         6
    32.2600        10
    32.3200         8
    32.3800         8
    32.4400         2
    32.5000         4
    32.5600         8
    32.6200         6
    32.6800         6
    32.7400         4
    32.8000         8
    32.8600         8
    32.9200         6
    32.9800        16
    33.0400         2
    33.1000         6
    33.1600         4
    33.2200         6
    33.2800        10
    33.3400         4
    33.4000         4
    33.4600        10
    33.5200         4
    33.5800         8
    33.6400        12
    33.7000         0
    33.7600         6
    33.8200         4
    33.8800         8
    33.9400         6
    34.0000         8
    34.0600         2
    34.1200         8
    34.1800        10
    34.2400         4
    34.3000         8
    34.3600         4
    34.4200         6
    34.4800         6
    34.5400         6
    34.6000         8
    34.6600        10
    34.7200         6
    34.7800         6
    34.8400        10
    34.9000         8
    34.9600         8
    35.0200         4
    35.0800         4
    35.1400         4
    35.2000         6
    35.2600         8
    35.3200         6
    35.3800        10
    35.4400        10
    35.5000         8
    35.5600        10
    35.6200         6
    35.6800        12
    35.7400         6
    35.8000        10
    35.8600         6
    35.9200        12
    35.9800         8
    36.0400        10
    36.1000         6
    36.1600         8
    36.2200         4
    36.2800         8
    36.3400        12
    36.4000         6
    36.4600        10
    36.5200         8
    36.5800        10
    36.6400         4
    36.7000         8
    36.7600         4
    36.8200        10
    36.8800         6
    36.9400        10
    37.0000         8
    37.0600         4
    37.1200         6
    37.1800         4
    37.2400        10
    37.3000         2
    37.3600        10
    37.4200         6
    37.4800         4
    37.5400         6
    37.6000         6
    37.6600         8
    37.7200        10
    37.7800         6
    37.8400         8
    37.9000         2
    37.9600         2
    38.0200         6
    38.0800         8
    38.1400         6
    38.2000         6
    38.2600         6
    38.3200         8
    38.3800         2
    38.4400         4
    38.5000         6
    38.5600        12
    38.6200         2
    38.6800         4
    38.7400         4
    38.8000        10
    38.8600         8
    38.9200         6
    38.9800         2
    39.0400         4
    39.1000         4
    39.1600         6
    39.2200         8
    39.2800         6
    39.3400         6
    39.4000         8
    39.4600         2
    39.5200         4
    39.5800         8
    39.6400         6
    39.7000        14
    39.7600         6
    39.8200         2
    39.8800        12
    39.9400         8
    40.0000         4
    40.0600        12
    40.1200         0
    40.1800         2
    40.2400        10
    40.3000         0
    40.3600         6
    40.4200         4
    40.4800         2
    40.5400         4
    40.6000         2
    40.6600         8
    40.7200         4
    40.7800         6
    40.8400         4
    40.9000         2
    40.9600         8
    41.0200         8
    41.0800         8
    41.1400         8
    41.2000         2
    41.2600         4
    41.3200         4
    41.3800         4
    41.4400         2
    41.5000         0
    41.5600         2
    41.6200         4
    41.6800         6
    41.7400         4
    41.8000         8
    41.8600         6
    41.9200         4
    41.9800         8
    42.0400         2
    42.1000         4
    42.1600         4
    42.2200         4
    42.2800         4
    42.3400         2
    42.4000         0
    42.4600        12
    42.5200         6
    42.5800         2
    42.6400         2
    42.7000         8
    42.7600         8
    42.8200         2
    42.8800         2
    42.9400         2
    43.0000         4
    43.0600         6
    43.1200         4
    43.1800         6
    43.2400         4
    43.3000         4
    43.3600         2
    43.4200        10
    43.4800         2
    43.5400         2
    43.6000         8
    43.6600         6
    43.7200         6
    43.7800         6
    43.8400         2
    43.9000         4
    43.9600         6
    44.0200         6
    44.0800         4
    44.1400         4
    44.2000         4
    44.2600         6
    44.3200         4
    44.3800         2
    44.4400         4
    44.5000         4
    44.5600         4
    44.6200         6
    44.6800         6
    44.7400         8
    44.8000        12
    44.8600         6
    44.9200         6
    44.9800         4
    45.0400         2
    45.1000        10
    45.1600         6
    45.2200         2
    45.2800         6
    45.3400         6
    45.4000         4
    45.4600         8
    45.5200         8
    45.5800         6
    45.6400         2
    45.7000         2
    45.7600         0
    45.8200         2
    45.8800         6
    45.9400         2
    46.0000         6
    46.0600         4
    46.1200         8
    46.1800         0
    46.2400         2
    46.3000         6
    46.3600         8
    46.4200         8
    46.4800         2
    46.5400         4
    46.6000        10
    46.6600         4
    46.7200         4
    46.7800         4
    46.8400         4
    46.9000         8
    46.9600         4
    47.0200         4
    47.0800         4
    47.1400         4
    47.2000         6
    47.2600         2
    47.3200         0
    47.3800         6
    47.4400         4
    47.5000         2
    47.5600         4
    47.6200         0
    47.6800         4
    47.7400         4
    47.8000         4
    47.8600         6
    47.9200         0
    47.9800         2
    48.0400         4
    48.1000         8
    48.1600         0
    48.2200         4
    48.2800         4
    48.3400         2
    48.4000         6
    48.4600         8
    48.5200         4
    48.5800         4
    48.6400         4
    48.7000         8
    48.7600         6
    48.8200         4
    48.8800         4
    48.9400         8
    49.0000         4
    49.0600        12
    49.1200         4
    49.1800         6
    49.2400         4
    49.3000         4
    49.3600         4
    49.4200         4
    49.4800         6
    49.5400         4
    49.6000         2
    49.6600         6
    49.7200         6
    49.7800         0
    49.8400         2
    49.9000        12
    49.9600         6
    50.0200         6
    50.0800         2
    50.1400         4
    50.2000         4
    50.2600         6
    50.3200         6
    50.3800         2
    50.4400         2
    50.5000         4
    50.5600         2
    50.6200         4
    50.6800         2
    50.7400         4
    50.8000         2
    50.8600         4
    50.9200        10
    50.9800         4
    51.0400         2
    51.1000         4
    51.1600         4
    51.2200         4
    51.2800         4
    51.3400         6
    51.4000         2
    51.4600         0
    51.5200        10
    51.5800         2
    51.6400         4
    51.7000         6
    51.7600         8
    51.8200         2
    51.8800         4
    51.9400         6
    52.0000         2
    52.0600         2
    52.1200         2
    52.1800         2
    52.2400         4
    52.3000        10
    52.3600         4
    52.4200         2
    52.4800         4
    52.5400         2
    52.6000         6
    52.6600         4
    52.7200         4
    52.7800         2
    52.8400         2
    52.9000         2
    52.9600         4
    53.0200         4
    53.0800         6
    53.1400         2
    53.2000         2
    53.2600        10
    53.3200         4
    53.3800         8
    53.4400         8
    53.5000         4
    53.5600         4
    53.6200         6
    53.6800         4
    53.7400         2
    53.8000         8
    53.8600         4
    53.9200         4
    53.9800         2
    54.0400         6
    54.1000         4
    54.1600         4
    54.2200         4
    54.2800         4
    54.3400         2
    54.4000         6
    54.4600         4
    54.5200         4
    54.5800         4
    54.6400         4
    54.7000         2
    54.7600         4
    54.8200         2
    54.8800         4
    54.9400         0
    55.0000         2
    55.0600         4
    55.1200         2
    55.1800         4
    55.2400         6
    55.3000         2
    55.3600         0
    55.4200         6
    55.4800         4
    55.5400         2
    55.6000         2
    55.6600         2
    55.7200         2
    55.7800         6
    55.8400         2
    55.9000         4
    55.9600         2
    56.0200         4
    56.0800         4
    56.1400         4
    56.2000         6
    56.2600         2
    56.3200         2
    56.3800         2
    56.4400         4
    56.5000         6
    56.5600         4
    56.6200        10
    56.6800         6
    56.7400         4
    56.8000         4
    56.8600         6
    56.9200         4
    56.9800         2
    57.0400         6
    57.1000         4
    57.1600         8
    57.2200         2
    57.2800         6
    57.3400         2
    57.4000         4
    57.4600         4
    57.5200         4
    57.5800         4
    57.6400         4
    57.7000         6
    57.7600         4
    57.8200         2
    57.8800         8
    57.9400         2
    58.0000         6
    58.0600         6
    58.1200         2
    58.1800         2
    58.2400         2
    58.3000         2
    58.3600         2
    58.4200         2
    58.4800         6
    58.5400         4
    58.6000         0
    58.6600         6
    58.7200         4
    58.7800         2
    58.8400         4
    58.9000         4
    58.9600         6
    59.0200         4
    59.0800         4
    59.1400         4
    59.2000         6
    59.2600         6
    59.3200         4
    59.3800         6
    59.4400         4
    59.5000         2
    59.5600         2
    59.6200         2
    59.6800         4
    59.7400         6
    59.8000         8
    59.8600         6
    59.9200         2
    59.9800         4
    60.0400         2
    60.1000         2
    60.1600         6
    60.2200         2
    60.2800         6
    60.3400         4
    60.4000         4
    60.4600         4
    60.5200         2
    60.5800         4
    60.6400         2
    60.7000         0
    60.7600         2
    60.8200         2
    60.8800         6
    60.9400         2
    61.0000         6
    61.0600         4
    61.1200         4
    61.1800         2
    61.2400         0
    61.3000         2
    61.3600         4
    61.4200         4
    61.4800         6
    61.5400         0
    61.6000         4
    61.6600         4
    61.7200         2
    61.7800         6
    61.8400         6
    61.9000         6
    61.9600         2
    62.0200         2
    62.0800         2
    62.1400         4
    62.2000         2
    62.2600         2
    62.3200        10
    62.3800         4
    62.4400         2
    62.5000         4
    62.5600         2
    62.6200         2
    62.6800         2
    62.7400         0
    62.8000         6
    62.8600         6
    62.9200         4
    62.9800         0
    63.0400         4
    63.1000         4
    63.1600         0
    63.2200         2
    63.2800         2
    63.3400         8
    63.4000         6
    63.4600         2
    63.5200         6
    63.5800         0
    63.6400         6
    63.7000         2
    63.7600         4
    63.8200         4
    63.8800         4
    63.9400         4
    64.0000         4
    64.0600         4
    64.1200         6
    64.1800         8
    64.2400         6
    64.3000         2
    64.3600         2
    64.4200         6
    64.4800         0
    64.5400         2
    64.6000         4
    64.6600         2
    64.7200         4
    64.7800         0
    64.8400         6
    64.9000         4
    64.9600         2
    65.0200         2
    65.0800         4
    65.1400         6
    65.2000         2
    65.2600         4
    65.3200         4
    65.3800         4
    65.4400         6
    65.5000         2
    65.5600         6
    65.6200         4
    65.6800         2
    65.7400         4
    65.8000         4
    65.8600         8
    65.9200        10
    65.9800         0
    66.0400         2
    66.1000         6
    66.1600         4
    66.2200         2
    66.2800         2
    66.3400         2
    66.4000         6
    66.4600         2
    66.5200         2
    66.5800         4
    66.6400         4
    66.7000         4
    66.7600        10
    66.8200         8
    66.8800         2
    66.9400         4
    67.0000         4
    67.0600         4
    67.1200         6
    67.1800         4
    67.2400         6
    67.3000         2
    67.3600         0
    67.4200         4
    67.4800         2
    67.5400         4
    67.6000         6
    67.6600         2
    67.7200         8
    67.7800         2
    67.8400         6
    67.9000         4
    67.9600         2
    68.0200         2
    68.0800         2
    68.1400         4
    68.2000         2
    68.2600         2
    68.3200         4
    68.3800         0
    68.4400         6
    68.5000         2
    68.5600         6
    68.6200         2
    68.6800         2
    68.7400         4
    68.8000         4
    68.8600         2
    68.9200         2
    68.9800         2
    69.0400         6
    69.1000         4
    69.1600         8
    69.2200         2
    69.2800         2
    69.3400         4
    69.4000         6
    69.4600         2
    69.5200         2
    69.5800         2
    69.6400         0
    69.7000         0
    69.7600         6
    69.8200         2
    69.8800         4
    69.9400         2
    70.0000         0